{
  "resourceType": "Bundle",
    "id": "Bundle-RDS-resources",
  "type": "transaction",
  "entry": [
    {
      "fullUrl": "urn:uuid:31f5c227-259e-4741-be3c-0d61b8b8d434",
      "resource": {
        "resourceType": "Observation",
        "meta": {
          "profile": [
            "http://hl7.org/fhir/uv/radiation-dose-summary/StructureDefinition/xray-radiation-dose-summary"
          ]
        },
        "partOf": [
          {
            "reference": "urn:uuid:f1738bb1-6f51-4d6b-ad7a-d8c933cf0cf1",
            "identifier" : {
              "type" : {
                "coding" : [
                  {
                    "system" : "http://hl7.org/fhir/uv/radiation-dose-summary/CodeSystem/dicom-identifier-type",
                    "code" : "study-instance-uid",
                    "display" : "Study Instance UID"
                  }
                ]
              },
              "system" : "urn:dicom:uid",
              "value" : "urn:oid:1.2.840.121.3.32.0.1.25"
            }
          }
        ],
        "status": "final",
        "code": {
          "coding": [
            {
              "system": "http://loinc.org",
              "code": "73569-6",
              "display": "Radiation exposure and protection information [Description] Document Diagnostic imaging"
            }
          ]
        },
        "subject": {
          "reference": "urn:uuid:9dbc81e1-99c1-4b9c-8a5b-1d37ee18312f",
          "display": "Pascale Dupont"
        },
        "effectiveDateTime": "2019-01-23T12:00:30.000Z",
        "performer": [
          {
            "reference": "urn:uuid:a7176373-e7e3-49ff-9d1f-fb977a4dd88f",
            "display": "John Moore"
          }
        ],
        "device": {
          "reference": "urn:uuid:c7627fe7-c072-4b9e-a4ee-94939b41664e",
          "display": "XA01"
        },
        "component": [
          {
            "code": {
              "coding": [
                {
                  "system": "http://dicom.nema.org/resources/ontology/DCM",
                  "code": "121058",
                  "display": "Procedure reported"
                }
              ]
            },
            "valueCodeableConcept": {
              "coding": [
                {
                  "system": "http://dicom.nema.org/resources/ontology/DCM",
                  "code": "113704",
                  "display": "Projection X-Ray"
                }
              ]
            }
          },
          {
            "code": {
              "coding": [
                {
                  "system": "http://dicom.nema.org/resources/ontology/DCM",
                  "code": "113725",
                  "display": "Dose (RP) Total"
                }
              ]
            },
            "valueQuantity": {
              "value": 212,
              "unit": "mGy"
            }
          },
          {
            "code": {
              "coding": [
                {
                  "system": "http://dicom.nema.org/resources/ontology/DCM",
                  "code": "113722",
                  "display": "Dose Area Product Total"
                }
              ]
            },
            "valueQuantity": {
              "value": 13639,
              "unit": "mGy.cm2"
            }
          },
          {
            "code": {
              "coding": [
                {
                  "system": "http://dicom.nema.org/resources/ontology/DCM",
                  "code": "113730",
                  "display": "Total Fluoro Time"
                }
              ]
            },
            "valueQuantity": {
              "value": 450,
              "unit": "s"
            }
          }
        ]
      },
      "request": {
        "method": "POST",
        "url": "Observation"
      }
    },
    {
      "fullUrl": "urn:uuid:9dbc81e1-99c1-4b9c-8a5b-1d37ee18312f",
      "resource": {
        "resourceType": "Patient",
        "identifier": [
          {
            "system": "urn:pid:ipdauth1",
            "value": "PAT3421"
          }
        ],
        "name": [
          {
            "family": "Dupony",
            "given": [
              "Pascale"
            ]
          }
        ],
        "gender": "female",
        "birthDate": "1990-03-18"
      },
      "request": {
        "method": "POST",
        "url": "Patient"
      }
    },
    {
      "fullUrl": "urn:uuid:a7176373-e7e3-49ff-9d1f-fb977a4dd88f",
      "resource": {
        "resourceType": "Practitioner",
        "identifier": [
          {
            "system": "urn:prid:ipractauth1",
            "value": "pract67"
          }
        ],
        "name": [
          {
            "family": "Moore",
            "given": [
              "John"
            ]
          }
        ]
      },
      "request": {
        "method": "POST",
        "url": "Practitioner"
      }
    },
    {
      "fullUrl": "urn:uuid:c7627fe7-c072-4b9e-a4ee-94939b41664e",
      "resource": {
        "resourceType": "Device",
        "meta": {
          "profile": [
            "http://hl7.org/fhir/uv/radiation-dose-summary/StructureDefinition/modality-device"
          ]
        },
        "identifier": [
          {
            "type": {
              "coding": [
                {
                  "system": "http://terminology.hl7.org/CodeSystem/v2-0203",
                  "code": "SNO",
                  "display": "Serial Number"
                }
              ]
            },
            "value": "767ER"
          },
          {
            "type": {
              "coding": [
                {
                  "system": "http://hl7.org/fhir/uv/radiation-dose-summary/CodeSystem/dicom-identifier-type",
                  "code": "application-entity",
                  "display": "Application Entity"
                }
              ]
            },
            "value": "XA01"
          }
        ],
        "manufacturer": "Manufacturer-1",
        "serialNumber": "767ER",
        "deviceName": [
          {
            "name": "Manufacturer-1",
            "type": "manufacturer-name"
          },
          {
            "name": "Manufacturer-ModelName-1",
            "type": "model-name"
          }
        ],
        "type": {
          "coding": [
            {
              "system": "http://dicom.nema.org/resources/ontology/DCM",
              "code": "XA",
              "display": "X-Ray Angiography"
            }
          ]
        }
      },
      "request": {
        "method": "POST",
        "url": "Device"
      }
    },
    {
      "fullUrl": "urn:uuid:f1738bb1-6f51-4d6b-ad7a-d8c933cf0cf1",
      "resource": {
        "resourceType": "ImagingStudy",
        "identifier": [
          {
            "system": "urn:dicom:uid",
            "value": "urn:oid:1.2.840.121.3.32.0.1.25"
          },
          {
            "type": {
              "coding": [
                {
                  "system": "http://terminology.hl7.org/CodeSystem/v2-0203",
                  "code": "ACSN",
                  "display": "Accession ID"
                }
              ]
            },
            "value": "AN1232234"
          }
        ],
        "status": "available",
        "subject": {
          "reference": "urn:uuid:9dbc81e1-99c1-4b9c-8a5b-1d37ee18312f",
          "display": "Pascale Dupont"
        },
        "started": "2019-01-23T11:45:30.000Z"
      },
      "request": {
        "method": "POST",
        "url": "ImagingStudy"
      }
    }
  ]
}